{
    "resourceType": "Bundle",
    "identifier": {
        "system": "urn:ietf:rfc:4122",
        "value": "86d4fe63-0b57-4a5c-aebd-e0345d24021f"
    },
    "type": "document",
    "timestamp": "2023-12-06T23:17:03.045+00:00",
    "entry": [
        {
            "fullUrl": "urn:uuid:569c66a8-9f6e-4bb2-86e3-5153f3ec4821",
            "resource": {
                "resourceType": "Composition",
                "text": {
                    "status": "generated",
                    "div": "<div xmlns=\"http://www.w3.org/1999/xhtml\"><div><h1>Allergies and Intolerances</h1><div><div><table class=\"hapiPropertyTable\"><caption>Allergies And Intolerances</caption><thead><tr><th>Allergen</th><th>Status</th><th>Category</th><th>Reaction</th><th>Severity</th><th>Comments</th><th>Onset</th></tr></thead><tbody><tr id=\"AllergyIntolerance-urn:uuid:5b4da203-4e89-4a2c-b930-94b5d476d440\"><td> No information about allergies </td><td> active </td><td></td><td></td><td></td><td></td><td></td></tr></tbody></table></div></div></div><div><h1>Medication List</h1><div><div><table class=\"hapiPropertyTable\"><caption>Medication Summary: Medication Requests</caption><thead><tr><th>Medication</th><th>Status</th><th>Route</th><th>Sig</th><th>Comments</th><th>Authored Date</th></tr></thead><tbody></tbody></table><table class=\"hapiPropertyTable\"><caption>Medication Summary: Medication Statements</caption><thead><tr><th>Medication</th><th>Status</th><th>Route</th><th>Sig</th><th>Date</th></tr></thead><tbody><tr id=\"MedicationStatement-urn:uuid:9c1eb654-8ef8-4eef-85f6-1adfde639e80\"><td> No information about medications </td><td>Unknown</td><td></td><td></td><td></td></tr></tbody></table></div></div></div><div><h1>Problem List</h1><div><div><table class=\"hapiPropertyTable\"><caption>Problem List</caption><thead><tr><th>Medical Problems</th><th>Status</th><th>Comments</th><th>Onset Date</th></tr></thead><tbody><tr id=\"Condition-urn:uuid:a051a82c-e81e-4430-9d03-4eee4b21752c\"><td> No information about problems </td><td> active </td><td></td><td></td></tr></tbody></table></div></div></div></div>"
                },
                "status": "final",
                "type": {
                    "coding": [
                        {
                            "system": "http://loinc.org",
                            "code": "60591-5",
                            "display": "Patient Summary Document"
                        }
                    ]
                },
                "subject": {
                    "reference": "urn:uuid:1444b39b-9b6d-46ed-8a6b-daf5651019a9"
                },
                "date": "2023-12-06T23:17:02.906+00:00",
                "author": [
                    {
                        "reference": "urn:uuid:952b9295-c34e-43e5-b54c-b7bccb9d4899"
                    }
                ],
                "title": "Patient Summary as of 12/06/2023",
                "confidentiality": "N",
                "section": [
                    {
                        "title": "Allergies and Intolerances",
                        "code": {
                            "coding": [
                                {
                                    "system": "http://loinc.org",
                                    "code": "48765-2",
                                    "display": "Allergies and adverse reactions Document"
                                }
                            ]
                        },
                        "text": {
                            "status": "generated",
                            "div": "<div xmlns=\"http://www.w3.org/1999/xhtml\"><table class=\"hapiPropertyTable\"><caption>Allergies And Intolerances</caption><thead><tr><th>Allergen</th><th>Status</th><th>Category</th><th>Reaction</th><th>Severity</th><th>Comments</th><th>Onset</th></tr></thead><tbody><tr id=\"AllergyIntolerance-urn:uuid:5b4da203-4e89-4a2c-b930-94b5d476d440\"><td> No information about allergies </td><td> active </td><td></td><td></td><td></td><td></td><td></td></tr></tbody></table></div>"
                        },
                        "entry": [
                            {
                                "reference": "urn:uuid:5b4da203-4e89-4a2c-b930-94b5d476d440"
                            }
                        ]
                    },
                    {
                        "title": "Medication List",
                        "code": {
                            "coding": [
                                {
                                    "system": "http://loinc.org",
                                    "code": "10160-0",
                                    "display": "History of Medication use Narrative"
                                }
                            ]
                        },
                        "text": {
                            "status": "generated",
                            "div": "<div xmlns=\"http://www.w3.org/1999/xhtml\"><table class=\"hapiPropertyTable\"><caption>Medication Summary: Medication Requests</caption><thead><tr><th>Medication</th><th>Status</th><th>Route</th><th>Sig</th><th>Comments</th><th>Authored Date</th></tr></thead><tbody></tbody></table><table class=\"hapiPropertyTable\"><caption>Medication Summary: Medication Statements</caption><thead><tr><th>Medication</th><th>Status</th><th>Route</th><th>Sig</th><th>Date</th></tr></thead><tbody><tr id=\"MedicationStatement-urn:uuid:9c1eb654-8ef8-4eef-85f6-1adfde639e80\"><td> No information about medications </td><td>Unknown</td><td></td><td></td><td></td></tr></tbody></table></div>"
                        },
                        "entry": [
                            {
                                "reference": "urn:uuid:9c1eb654-8ef8-4eef-85f6-1adfde639e80"
                            }
                        ]
                    },
                    {
                        "title": "Problem List",
                        "code": {
                            "coding": [
                                {
                                    "system": "http://loinc.org",
                                    "code": "11450-4",
                                    "display": "Problem list - Reported"
                                }
                            ]
                        },
                        "text": {
                            "status": "generated",
                            "div": "<div xmlns=\"http://www.w3.org/1999/xhtml\"><table class=\"hapiPropertyTable\"><caption>Problem List</caption><thead><tr><th>Medical Problems</th><th>Status</th><th>Comments</th><th>Onset Date</th></tr></thead><tbody><tr id=\"Condition-urn:uuid:a051a82c-e81e-4430-9d03-4eee4b21752c\"><td> No information about problems </td><td> active </td><td></td><td></td></tr></tbody></table></div>"
                        },
                        "entry": [
                            {
                                "reference": "urn:uuid:a051a82c-e81e-4430-9d03-4eee4b21752c"
                            }
                        ]
                    }
                ]
            }
        },
        {
            "fullUrl": "urn:uuid:1444b39b-9b6d-46ed-8a6b-daf5651019a9",
            "resource": {
                "resourceType": "Patient",
                "meta": {
                    "versionId": "1",
                    "lastUpdated": "2020-06-18T00:06:04.662+00:00",
                    "source": "#H4T9tjszYIbqm6Lz"
                },
                "text": {
                    "status": "generated",
                    "div": "<div xmlns=\"http://www.w3.org/1999/xhtml\"><div class=\"hapiHeaderText\">Britanicle Br <b>Sarosota</b></div><table class=\"hapiPropertyTable\"><tbody><tr><td>Identifier</td><td>61739393939</td></tr><tr><td>Date of birth</td><td><span>18 November 2011</span></td></tr></tbody></table></div>"
                },
                "identifier": [
                    {
                        "system": "http://acme.org/mrn",
                        "value": "99939393131"
                    }
                ],
                "name": [
                    {
                        "family": "Sarosota",
                        "given": [
                            "Britanicle",
                            "Br"
                        ]
                    }
                ],
                "gender": "male",
                "birthDate": "2011-11-18"
            }
        },
        {
            "fullUrl": "urn:uuid:5b4da203-4e89-4a2c-b930-94b5d476d440",
            "resource": {
                "resourceType": "AllergyIntolerance",
                "extension": [
                    {
                        "url": "http://hl7.org/fhir/StructureDefinition/narrativeLink",
                        "valueUrl": "urn:uuid:569c66a8-9f6e-4bb2-86e3-5153f3ec4821#AllergyIntolerance-urn:uuid:5b4da203-4e89-4a2c-b930-94b5d476d440"
                    }
                ],
                "clinicalStatus": {
                    "coding": [
                        {
                            "system": "http://terminology.hl7.org/CodeSystem/allergyintolerance-clinical",
                            "code": "active"
                        }
                    ]
                },
                "code": {
                    "coding": [
                        {
                            "system": "http://hl7.org/fhir/uv/ips/CodeSystem/absent-unknown-uv-ips",
                            "code": "no-allergy-info",
                            "display": "No information about allergies"
                        }
                    ]
                },
                "patient": {
                    "reference": "urn:uuid:1444b39b-9b6d-46ed-8a6b-daf5651019a9"
                }
            }
        },
        {
            "fullUrl": "urn:uuid:9c1eb654-8ef8-4eef-85f6-1adfde639e80",
            "resource": {
                "resourceType": "MedicationStatement",
                "extension": [
                    {
                        "url": "http://hl7.org/fhir/StructureDefinition/narrativeLink",
                        "valueUrl": "urn:uuid:569c66a8-9f6e-4bb2-86e3-5153f3ec4821#MedicationStatement-urn:uuid:9c1eb654-8ef8-4eef-85f6-1adfde639e80"
                    }
                ],
                "status": "unknown",
                "medicationCodeableConcept": {
                    "coding": [
                        {
                            "system": "http://hl7.org/fhir/uv/ips/CodeSystem/absent-unknown-uv-ips",
                            "code": "no-medication-info",
                            "display": "No information about medications"
                        }
                    ]
                },
                "subject": {
                    "reference": "urn:uuid:1444b39b-9b6d-46ed-8a6b-daf5651019a9"
                }
            }
        },
        {
            "fullUrl": "urn:uuid:a051a82c-e81e-4430-9d03-4eee4b21752c",
            "resource": {
                "resourceType": "Condition",
                "extension": [
                    {
                        "url": "http://hl7.org/fhir/StructureDefinition/narrativeLink",
                        "valueUrl": "urn:uuid:569c66a8-9f6e-4bb2-86e3-5153f3ec4821#Condition-urn:uuid:a051a82c-e81e-4430-9d03-4eee4b21752c"
                    }
                ],
                "clinicalStatus": {
                    "coding": [
                        {
                            "system": "http://terminology.hl7.org/CodeSystem/condition-clinical",
                            "code": "active"
                        }
                    ]
                },
                "code": {
                    "coding": [
                        {
                            "system": "http://hl7.org/fhir/uv/ips/CodeSystem/absent-unknown-uv-ips",
                            "code": "no-problem-info",
                            "display": "No information about problems"
                        }
                    ]
                },
                "subject": {
                    "reference": "urn:uuid:1444b39b-9b6d-46ed-8a6b-daf5651019a9"
                }
            }
        },
        {
            "fullUrl": "urn:uuid:952b9295-c34e-43e5-b54c-b7bccb9d4899",
            "resource": {
                "resourceType": "Organization",
                "name": "eHealthLab - University of Cyprus",
                "address": [
                    {
                        "line": [
                            "1 University Avenue"
                        ],
                        "city": "Nicosia",
                        "postalCode": "2109",
                        "country": "CY"
                    }
                ]
            }
        }
    ]
}